Folder: diffpy.srxplanar/doc/examples

Note: doc/examples/selfcorr.txt
There are some spot in the image so that there are some 'extra' peaks when integrated in Fit2D without masking them. SrXplanar can mask this spot automatically by set selfcorrenable to True (default value).

Note: README.txt
diffpy.SrXplanar

diffpy.SrXplanar package provides 2D diffraction image integration using
non splitting pixel algorithm. And it can estimate and propagate statistic
uncertainty of raw counts and integrated intensity. 

To learn more about diffpy.Structure library, see the examples directory
included in this distribution or the API documentation at

    http://docs.danse.us/diffraction/diffpy.srxplanar


REQUIREMENTS

The diffpy.Structure requires Python 2.6 and the following external software:

    setuptools	>=0.61(https://pypi.python.org/pypi/setuptools)
    numpy       >=1.60(http://www.numpy.org/)
    scipy		>=1.10(www.scipy.org/)
    FabIO		>=0.80(http://sourceforge.net/projects/fable/files/fabio/)

If your python version < 2.7 (these two packages are included in 2.7 but not in 2.6)
	ordereddict	(https://pypi.python.org/pypi/ordereddict)
	argparse	(https://pypi.python.org/pypi/argparse)

We recommand to install EPD (Enthought Python Distribution)from 
http://www.enthought.com/ which include most of them (except FabIO) by default.

INSTALLATION

To install the diffpy.SrXplanar package:

    python setup.py install

By default the files are installed in the system directories, which are
usually only writeable by the root.  See the usage info 
"./setup.py install --help" for options to install as a normal user under
different location.  Note that installation to non-standard directories may
require adjustments to the PATH and PYTHONPATH environment variables.

The Python setuptools library provides "easy_install" script, which can
be used to update diffpy.Structure installation or even to perform a new
install without explicit need to download and unzip the code:

    easy_install -U diffpy.srxplanar

This checks the package repository at http://www.diffpy.org/packages/
for any newer releases of diffpy.Structure and if present, it updates the
installation.  The easy_install can be also used to get in sync with the
latest development sources in the subversion repository:

    easy_install -U \
        svn://svn@danse.us/diffraction/diffraction/diffpy.srxplanar/trunk


CONTACTS

For more information on diffpy.Structure please visit the project web-page:

    http://www.diffpy.org/

or email Prof. Simon Billinge at sb2896@columbia.edu

File: KFe2As2-00838_fit2d.chi
C:\incoming\KFe2As2-00838.tif: 2-theta Scan
2-Theta Angle (Degrees)

       2048
 0.133212  1620.54
 0.276671  3833.3
 0.42013  11298.5
 0.563589  10738.5
 0.707048  10849.8
 0.850507  48104.2
 0.993966  12484.7
 1.13743  8437.94
 1.28088  7744.3
 1.42434  7092.4
 1.5678  7169.66
 1.71126  14653.2
 1.85472  7177.58
 1.99818  12473.6
 2.14164  60742.2
 2.2851  13257.8
 2.42856  26342.1
 2.57202  8026.67
 2.71547  10698.8
 2.85893  35209.4
 3.00239  11981.9
 3.14585  13881.9
 3.28931  23650.6
 3.43277  13588.5
 3.57623  37818.5
 3.71969  7561.42
 3.86315  32976.7
 4.00661  5410.03
 4.15006  5220.83
 4.29352  8713.59
 4.43698  7727.04
 4.58044  16919.3
 4.7239  9910.86
 4.86736  12527.1
 5.01082  10782.3
 5.15428  11537.1
 5.29774  8545.87
 5.4412  18445.1
 5.58466  7951.93
 5.72811  17931.4
 5.87157  9742.17
 6.01503  10399.4
 6.15849  7462.55
 6.30195  7688.11
 6.44541  9696.41
 6.58887  7727.76
 6.73233  8991.87
 6.87579  7776.42
 7.01925  7343.6
 7.1627  7467.96
 7.30616  8765.7
 7.44962  6403.5
 7.59308  5932.02
 7.73654  5807.98
 7.88  5999.36
 8.02346  8701.02
 8.16692  8520.02
 8.31038  6604.56
 8.45384  8631.95
 8.59729  6453.31
 8.74075  6785.27
 8.88421  5202.41
 9.02767  5836.7
 9.17113  5057.35
 9.31459  5309.7
 9.45805  5493.29
 9.60151  6351.7
 9.74497  5523.18
 9.88843  5404.74
 10.0319  5386.97
 10.1753  5510.7
 10.3188  5826.11
 10.4623  4796.89
 10.6057  4319.56
 10.7492  4428.71
 10.8926  5213.9
 11.0361  5398.4
 11.1796  4859.32
 11.323  4723.65
 11.4665  5163.82
 11.6099  5224.37
 11.7534  4869.06
 11.8969  4547.21
 12.0403  3786.45
 12.1838  3911.39
 12.3272  3963.82
 12.4707  4185.04
 12.6141  4152.66
 12.7576  4258.28
 12.9011  4260.75
 13.0445  4366.61
 13.188  4094.08
 13.3314  4026.03
 13.4749  4097.06
 13.6184  4139.77
 13.7618  4033.87
 13.9053  4034.93
 14.0487  3961.45
 14.1922  3951.54
 14.3357  3850.16
 14.4791  3666.36
 14.6226  3666.3
 14.766  3654.14
 14.9095  3633.54
 15.053  3677.34
 15.1964  3667.51
 15.3399  3604.57
 15.4833  3518.28
 15.6268  3542.09
 15.7702  3520.71
 15.9137  3493.24
 16.0572  3558.89
 16.2006  3606.13
 16.3441  3519
 16.4875  3498.02
 16.631  3444.96
 16.7745  3431.74
 16.9179  3448.4
 17.0614  3388.46
 17.2048  3286.48
 17.3483  3195.29
 17.4918  3192.05
 17.6352  3183.28
 17.7787  3204.14
 17.9221  3219.84
 18.0656  3228.76
 18.209  3206.38
 18.3525  3204.11
 18.496  3195.9
 18.6394  3203.11
 18.7829  3158.11
 18.9263  3139.66
 19.0698  3103.1
 19.2133  3087.74
 19.3567  3074.09
 19.5002  3079.12
 19.6436  3063.26
 19.7871  3029.06
 19.9306  2972.06
 20.074  2928.76
 20.2175  2913.56
 20.3609  2919.98
 20.5044  2919.66
 20.6479  2933.4
 20.7913  2921.19
 20.9348  2915.91
 21.0782  2916.22
 21.2217  2910.43
 21.3651  2892.8
 21.5086  2875.91
 21.6521  2850.48
 21.7955  2822.96
 21.939  2803.88
 22.0824  2733.88
 22.2259  2719.86
 22.3694  2726.79
 22.5128  2727.81
 22.6563  2721.95
 22.7997  2705.64
 22.9432  2696.35
 23.0867  2695.93
 23.2301  2688.99
 23.3736  2681.06
 23.517  2682.21
 23.6605  2675.77
 23.804  2675.41
 23.9474  2664.29
 24.0909  2657.44
 24.2343  2648.92
 24.3778  2636
 24.5212  2624.18
 24.6647  2611.95
 24.8082  2597.1
 24.9516  2589.37
 25.0951  2575.26
 25.2385  2567.28
 25.382  2556.43
 25.5255  2549.42
 25.6689  2542.36
 25.8124  2534.12
 25.9558  2534.78
 26.0993  2527.72
 26.2428  2524.93
 26.3862  2516.7
 26.5297  2509.73
 26.6731  2499.71
 26.8166  2490.88
 26.9601  2483.32
 27.1035  2474.02
 27.247  2466.53
 27.3904  2453.49
 27.5339  2453.44
 27.6773  2446.59
 27.8208  2434.4
 27.9643  2426.5
 28.1077  2415.53
 28.2512  2367.58
 28.3946  2299.85
 28.5381  2347.03
 28.6816  2353.84
 28.825  2356.35
 28.9685  2361.38
 29.1119  2354.38
 29.2554  2351.43
 29.3989  2349.81
 29.5423  2303.53
 29.6858  2308.71
 29.8292  2313.47
 29.9727  2304.9
 30.1162  2299.5
 30.2596  2296.73
 30.4031  2296.89
 30.5465  2294.46
 30.69  2285.79
 30.8334  2279.36
 30.9769  2273.62
 31.1204  2272.31
 31.2638  2265.39
 31.4073  2262.53
 31.5507  2258.94
 31.6942  2255.71
 31.8377  2252.53
 31.9811  2236.37
 32.1246  2241.69
 32.268  2236
 32.4115  2227.41
 32.555  2225.3
 32.6984  2225.73
 32.8419  2230.21
 32.9853  2231.5
 33.1288  2230.34
 33.2722  2227.32
 33.4157  2226.06
 33.5592  2224.8
 33.7026  2220.87
 33.8461  2228.5
 33.9895  2231.43
 34.133  2239.04
 34.2765  2240.03
 34.4199  2235.35
 34.5634  2232.3
 34.7068  2134.41
 34.8503  2135.04
 34.9938  2154
 35.1372  2163.32
 35.2807  2171.02
 35.4241  2164.36
 35.5676  2164.81
 35.7111  2156.43
 35.8545  2156.59
 35.998  2149.48
 36.1414  2148.77
 36.2849  2143.33
 36.4283  2137.86
 36.5718  2132.32
 36.7153  2129.26
 36.8587  2123.25
 37.0022  2118.69
 37.1456  2113.52
 37.2891  2121.15
 37.4326  2105.31
 37.576  2104.19
 37.7195  2101.15
 37.8629  2092.8
 38.0064  2088.32
 38.1499  2080.29
 38.2933  2077.95
 38.4368  2077.55
 38.5802  2071.15
 38.7237  2062.55
 38.8671  2050.96
 39.0106  2049.94
 39.1541  2049.07
 39.2975  2044.35
 39.441  2037.91
 39.5844  2016.95
 39.7279  2012
 39.8714  1988.26
 40.0148  1981.85
 40.1583  1955.67
 40.3017  1933.43
 40.4452  1913.88
 40.5887  1875.26
 40.7321  1834.63
 40.8756  1760.7
 41.019  1914.97
 41.1625  1950.12
 41.306  1888.27
 41.4494  1809.99
 41.5929  1634.53
 41.7363  1299.54
 41.8798  430.071
 41.9618 -1.17926

File: KFe2As2-00838_fit2d_corr_on.chi
D:\workspace\KFe2As2-00838.tif: 2-theta Scan
2-Theta Angle (Degrees)

       1662
 0.13886  1620.37
 0.290344  4190.02
 0.441828  11295.6
 0.593312  10815.3
 0.744796  11059.6
 0.89628  72627
 1.04776  9290.33
 1.19925  8113.11
 1.35073  7390.21
 1.50222  6853.86
 1.6537  17201.2
 1.80518  7551.98
 1.95667  8291.68
 2.10815  93476.8
 2.25963  12950.3
 2.41112  21623.5
 2.5626  8135.44
 2.71409  10498.2
 2.86557  39488.7
 3.01705  12729.6
 3.16854  22117
 3.32002  18393.5
 3.47151  30691.4
 3.62299  17244.8
 3.77447  12764.2
 3.92596  11830.2
 4.07744  4946.45
 4.22893  7208.56
 4.38041  7375.31
 4.53189  15448.2
 4.68338  8836.91
 4.83486  17821.8
 4.98634  9415.06
 5.13783  10526.2
 5.28931  8451.61
 5.4408  18854.9
 5.59228  7445.23
 5.74376  21275
 5.89525  8563.42
 6.04673  9480.84
 6.19822  6627.16
 6.3497  8133.33
 6.50118  7782.57
 6.65267  10265
 6.80415  9300.44
 6.95564  6164.1
 7.10712  8064.26
 7.2586  8719.79
 7.41009  8281.6
 7.56157  5761.19
 7.71305  5555.78
 7.86454  6240.28
 8.01602  8181.92
 8.16751  8497.71
 8.31899  6612.7
 8.47047  8374.14
 8.62196  6908.84
 8.77344  6449.38
 8.92493  5110.62
 9.07641  5461.01
 9.22789  5333.53
 9.37938  4837.02
 9.53086  6484.95
 9.68235  5361.16
 9.83383  5713.47
 9.98531  5273.16
 10.1368  5633.39
 10.2883  5701.36
 10.4398  5108.03
 10.5912  4321.55
 10.7427  4405.51
 10.8942  5205.73
 11.0457  5415.5
 11.1972  4746.9
 11.3487  4786.96
 11.5002  5340.34
 11.6516  5018.34
 11.8031  4876.51
 11.9546  4230.92
 12.1061  3812.01
 12.2576  3989.3
 12.4091  4105.52
 12.5605  4209.14
 12.712  4249.59
 12.8635  4226.89
 13.015  4369.82
 13.1665  4163.92
 13.318  4020.39
 13.4694  4090.85
 13.6209  4137.25
 13.7724  4020.57
 13.9239  4032.06
 14.0754  3983.42
 14.2269  3944.8
 14.3783  3811.6
 14.5298  3654.07
 14.6813  3643.77
 14.8328  3696.83
 14.9843  3676.55
 15.1358  3645.57
 15.2873  3593.24
 15.4387  3524.02
 15.5902  3531.98
 15.7417  3526.09
 15.8932  3498.32
 16.0447  3552.57
 16.1962  3601.75
 16.3476  3517.46
 16.4991  3487.48
 16.6506  3455.07
 16.8021  3430.8
 16.9536  3430.33
 17.1051  3363.02
 17.2565  3251
 17.408  3187.77
 17.5595  3177.82
 17.711  3200.35
 17.8625  3210.71
 18.014  3236.21
 18.1654  3210.89
 18.3169  3207.23
 18.4684  3197.09
 18.6199  3197.5
 18.7714  3162.82
 18.9229  3138.57
 19.0743  3104.1
 19.2258  3085.56
 19.3773  3075.54
 19.5288  3073.65
 19.6803  3055.28
 19.8318  3012.03
 19.9833  2958.28
 20.1347  2908.61
 20.2862  2919.29
 20.4377  2917.7
 20.5892  2933.2
 20.7407  2921.02
 20.8922  2918.17
 21.0436  2916.68
 21.1951  2913.83
 21.3466  2894.26
 21.4981  2876.48
 21.6496  2851.37
 21.8011  2821.51
 21.9525  2800.47
 22.104  2727.23
 22.2555  2721.34
 22.407  2727.1
 22.5585  2727.12
 22.71  2714.29
 22.8614  2700.54
 23.0129  2691.8
 23.1644  2688.06
 23.3159  2677.16
 23.4674  2682.05
 23.6189  2676.66
 23.7703  2675
 23.9218  2666.13
 24.0733  2656.51
 24.2248  2648.4
 24.3763  2635.47
 24.5278  2621.02
 24.6793  2610.12
 24.8307  2595.18
 24.9822  2586.3
 25.1337  2573.29
 25.2852  2561.77
 25.4367  2553.99
 25.5882  2545.24
 25.7396  2540.63
 25.8911  2535.62
 26.0426  2529
 26.1941  2523.29
 26.3456  2521.08
 26.4971  2510.29
 26.6485  2501.72
 26.8  2491.61
 26.9515  2482.61
 27.103  2473.33
 27.2545  2466.47
 27.406  2452.58
 27.5574  2450.03
 27.7089  2441.15
 27.8604  2431.67
 28.0119  2423.5
 28.1634  2402.35
 28.3149  2339.82
 28.4663  2334.43
 28.6178  2352.44
 28.7693  2356.64
 28.9208  2355.51
 29.0723  2352.82
 29.2238  2350.64
 29.3753  2349.47
 29.5267  2307.42
 29.6782  2308.98
 29.8297  2312.43
 29.9812  2302.8
 30.1327  2299.68
 30.2842  2295.11
 30.4356  2296.17
 30.5871  2284.91
 30.7386  2278.59
 30.8901  2274.9
 31.0416  2271.93
 31.1931  2270.78
 31.3445  2263.42
 31.496  2258.68
 31.6475  2256.55
 31.799  2252.41
 31.9505  2231.58
 32.102  2239.04
 32.2534  2234.14
 32.4049  2225.24
 32.5564  2225.34
 32.7079  2223.43
 32.8594  2223.67
 33.0109  2224.17
 33.1624  2231.42
 33.3138  2224.88
 33.4653  2226.23
 33.6168  2222.82
 33.7683  2219.92
 33.9198  2227.74
 34.0713  2222.65
 34.2227  2234.14
 34.3742  2235.52
 34.5257  2230.24
 34.6772  2179.53
 34.8287  2130.89
 34.9802  2152.98
 35.1316  2162.71
 35.2831  2168.03
 35.4346  2163.7
 35.5861  2158.94
 35.7376  2161.02
 35.8891  2152.36
 36.0405  2145.13
 36.192  2148.61
 36.3435  2138.05
 36.495  2129.93
 36.6465  2130.04
 36.798  2124.02
 36.9494  2117.25
 37.1009  2114.15
 37.2524  2115.01
 37.4039  2103.73
 37.5554  2104.99
 37.7069  2097.64
 37.8583  2091.72
 38.0098  2088.16
 38.1613  2084.22
 38.3128  2074.34
 38.4643  2068.85
 38.6158  2030.26
 38.7673  2058.04
 38.9187  2051.12
 39.0702  2053.63
 39.2217  2045.7
 39.3732  2021.88
 39.5247  2019.58
 39.6762  2012.29
 39.8276  1991.81
 39.9791  1988.2
 40.1306  1957.57
 40.2821  1931.47
 40.4336  1912.24
 40.5851  1869.68
 40.7365  1834.98
 40.888  1747.6
 41.0395  1958.84
 41.191  1906.67
 41.3425  1864.29
 41.494  1747.54
 41.6454  1548.65
 41.7969  762.896
 41.9484 -2.97277